color,word,ans,congruent,trials.thisRepN,trials.thisTrialN,trials.thisN,trials.thisIndex,stim.started,stim.stopped,cross.started,cross.stopped,response.keys,response.corr,response.rt,response.started,response.stopped,sync.started,sync.stopped,participant,session,date,expName,psychopyVersion,frameRate,
red,green,r,0,0,0,0,5,23.636460166992000,None,21.6422760419955,23.653588749992200,r,1,0.8802909160003770,23.636460166992000,None,23.636460166992000,23.737348083988800,g,1,2022_Mar_02_1342,hw_test,2021.2.3,60.000164760729100,
yellow,red,y,0,0,1,1,7,26.536541541994700,None,24.537681458998100,26.55295120899970,y,1,1.2487663329957300,26.536541541994700,None,26.536541541994700,26.636510249998500,g,1,2022_Mar_02_1342,hw_test,2021.2.3,60.000164760729100,
green,red,g,0,0,2,2,10,29.786594041987000,None,27.803238291991900,29.80302608398780,g,1,0.7408106660004710,29.786594041987000,None,29.786594041987000,29.886994249987800,g,1,2022_Mar_02_1342,hw_test,2021.2.3,60.000164760729100,
yellow,yellow,y,1,0,3,3,1,32.55360241699960,None,30.55532441700050,32.56951862499410,y,1,0.5206578740035180,32.55360241699960,None,32.55360241699960,32.65320454198810,g,1,2022_Mar_02_1342,hw_test,2021.2.3,60.000164760729100,
blue,yellow,b,0,0,4,4,14,35.08652120899930,None,33.10302095899530,35.10322683399140,b,1,0.5473152080085130,35.08652120899930,None,35.08652120899930,35.18627049999490,g,1,2022_Mar_02_1342,hw_test,2021.2.3,60.000164760729100,
yellow,red,y,0,0,5,5,7,37.636364124991800,None,35.653498249987000,37.653076666989400,y,1,0.7151897909934630,37.636364124991800,None,37.636364124991800,37.73724408399720,g,1,2022_Mar_02_1342,hw_test,2021.2.3,60.000164760729100,
red,green,r,0,0,6,6,5,40.35288745899740,None,38.37079695898870,40.38711479199990,r,1,0.7984023739991240,40.35288745899740,None,40.35288745899740,40.45307041698830,g,1,2022_Mar_02_1342,hw_test,2021.2.3,60.000164760729100,
green,red,g,0,0,7,7,10,43.1537239169993,None,41.170045666993200,43.16984099999540,g,1,0.6390459579997700,43.1537239169993,None,43.1537239169993,43.25350987499410,g,1,2022_Mar_02_1342,hw_test,2021.2.3,60.000164760729100,
red,green,r,0,0,8,8,5,45.80321037498650,None,43.81968216699900,45.820195749998700,r,1,0.669624375004787,45.80321037498650,None,45.80321037498650,45.90341333398830,g,1,2022_Mar_02_1342,hw_test,2021.2.3,60.000164760729100,
yellow,yellow,y,1,0,9,9,1,48.48679404199360,None,46.5188533749897,48.52010158399940,y,1,0.5246174999920190,48.48679404199360,None,48.48679404199360,48.58664133399730,g,1,2022_Mar_02_1342,hw_test,2021.2.3,60.000164760729100,
red,red,r,1,0,10,10,0,51.02015687499080,None,49.03665633399210,51.03746854199560,r,1,0.579343791003339,51.02015687499080,None,51.02015687499080,51.12000195898870,g,1,2022_Mar_02_1342,hw_test,2021.2.3,60.000164760729100,
blue,yellow,b,0,0,11,11,14,53.603542917000600,None,51.620934416991100,53.62022799999980,b,1,0.63635441599763,53.603542917000600,None,53.603542917000600,53.703856083986500,g,1,2022_Mar_02_1342,hw_test,2021.2.3,60.000164760729100,
blue,yellow,b,0,0,12,12,14,56.25306995899880,None,54.26977829200040,56.270389708995900,b,1,0.6794794160086890,56.25306995899880,None,56.25306995899880,56.353312249993900,g,1,2022_Mar_02_1342,hw_test,2021.2.3,60.000164760729100,
blue,green,b,0,0,13,13,15,58.9364212090004,None,56.961103708992600,58.96976683399410,b,1,0.5806932910054460,58.9364212090004,None,58.9364212090004,59.03643020898740,g,1,2022_Mar_02_1342,hw_test,2021.2.3,60.000164760729100,
blue,blue,b,1,0,14,14,3,61.519851249991900,None,59.537516749987800,61.536844709000400,b,1,0.4076052489981520,61.519851249991900,None,61.519851249991900,61.62001137499470,g,1,2022_Mar_02_1342,hw_test,2021.2.3,60.000164760729100,
green,blue,g,0,0,15,15,12,63.93719433399380,None,61.953192583998300,63.953248083998900,g,1,0.6162303330056600,63.93719433399380,None,63.93719433399380,64.03670320899980,g,1,2022_Mar_02_1342,hw_test,2021.2.3,60.000164760729100,
yellow,yellow,y,1,1,0,16,1,66.57001545898680,None,64.58701083398770,66.58651241699410,y,1,0.5170106239966120,66.57001545898680,None,66.57001545898680,66.669909291988,g,1,2022_Mar_02_1342,hw_test,2021.2.3,60.000164760729100,
blue,red,b,0,1,1,17,13,69.0867587919929,None,67.10320591699570,69.1038119589939,b,1,0.6550616239983360,69.0867587919929,None,69.0867587919929,69.18646774999800,g,1,2022_Mar_02_1342,hw_test,2021.2.3,60.000164760729100,
yellow,yellow,y,1,1,2,18,1,71.75324254199220,None,69.77059054200070,71.76988616699240,y,1,0.5594911660009530,71.75324254199220,None,71.75324254199220,71.85335783399930,g,1,2022_Mar_02_1342,hw_test,2021.2.3,60.000164760729100,
red,blue,r,0,1,3,19,6,74.31997312499150,None,72.33744170899450,74.33680133399320,r,1,0.3800018320034720,74.31997312499150,None,74.31997312499150,74.42014212498910,g,1,2022_Mar_02_1342,hw_test,2021.2.3,60.000164760729100,
yellow,green,y,0,1,4,20,8,76.70325804199090,None,74.72037483399620,76.71996512499750,b,0,0.6544185410020870,76.70325804199090,None,76.70325804199090,76.803972624999,g,1,2022_Mar_02_1342,hw_test,2021.2.3,60.000164760729100,
red,red,r,1,1,5,21,0,79.37017562499390,None,77.38711674998920,79.38657758399500,r,1,0.6333854160038750,79.37017562499390,None,79.37017562499390,79.4699133749964,g,1,2022_Mar_02_1342,hw_test,2021.2.3,60.000164760729100,
yellow,green,y,0,1,6,22,8,82.02008879199280,None,80.03703720899650,82.03663349999990,y,1,0.65246491599828,82.02008879199280,None,82.02008879199280,82.12011641699060,g,1,2022_Mar_02_1342,hw_test,2021.2.3,60.000164760729100,
red,blue,r,0,1,7,23,6,84.68738274999490,None,82.70302004199770,84.7036624589964,r,1,1.0739551239967100,84.68738274999490,None,84.68738274999490,84.78668629199090,g,1,2022_Mar_02_1342,hw_test,2021.2.3,60.000164760729100,
yellow,red,y,0,1,8,24,7,87.77010395898830,None,85.78709049998720,87.78675170899080,y,1,0.44022370799211800,87.77010395898830,None,87.77010395898830,87.86994187498930,g,1,2022_Mar_02_1342,hw_test,2021.2.3,60.000164760729100,
green,red,g,0,1,9,25,10,90.2198428339907,None,88.23654974999950,90.23675658399590,g,1,0.40127312499680600,90.2198428339907,None,90.2198428339907,90.32020879199260,g,1,2022_Mar_02_1342,hw_test,2021.2.3,60.000164760729100,
yellow,green,y,0,1,10,26,8,92.6370896249864,None,90.6535703749978,92.65430624999860,y,1,0.47076108200417400,92.6370896249864,None,92.6370896249864,92.73686224999260,g,1,2022_Mar_02_1342,hw_test,2021.2.3,60.000164760729100,
red,green,r,0,1,11,27,5,95.1205116249912,None,93.13677320900020,95.13664149999390,r,1,0.5094406659918600,95.1205116249912,None,95.1205116249912,95.22031174998850,g,1,2022_Mar_02_1342,hw_test,2021.2.3,60.000164760729100,
blue,blue,b,1,1,12,28,3,97.63657874999630,None,95.65353666699960,97.65359191699830,b,1,0.5952832079929070,97.63657874999630,None,97.63657874999630,97.73644983398840,g,1,2022_Mar_02_1342,hw_test,2021.2.3,60.000164760729100,
blue,green,b,0,1,13,29,15,100.23701895900000,None,98.25379595899720,100.25361124999500,b,1,0.6098569580062760,100.23701895900000,None,100.23701895900000,100.33687562499800,g,1,2022_Mar_02_1342,hw_test,2021.2.3,60.000164760729100,
green,yellow,g,0,1,14,30,11,102.8537452499880,None,100.8704341249980,102.87044108400000,g,1,0.6310325829981590,102.8537452499880,None,102.8537452499880,102.95369254199600,g,1,2022_Mar_02_1342,hw_test,2021.2.3,60.000164760729100,
green,blue,g,0,1,15,31,12,105.48725458399000,None,103.50371591698800,105.50376895899500,g,1,0.7013073319976680,105.48725458399000,None,105.48725458399000,105.58653149999700,g,1,2022_Mar_02_1342,hw_test,2021.2.3,60.000164760729100,
blue,red,b,0,2,0,32,13,108.20357470899800,None,106.22021641698700,108.22032195898600,b,1,0.6286687499959950,108.20357470899800,None,108.20357470899800,108.30340879199500,g,1,2022_Mar_02_1342,hw_test,2021.2.3,60.000164760729100,
green,blue,g,0,2,1,33,12,110.83682224999900,None,108.85388295899600,110.85332162499300,g,1,0.6539805000065830,110.83682224999900,None,110.83682224999900,110.93751199999000,g,1,2022_Mar_02_1342,hw_test,2021.2.3,60.000164760729100,
red,yellow,r,0,2,2,34,4,113.50369466700100,None,111.52068662499400,113.52012404199900,r,1,0.5781173750001470,113.50369466700100,None,113.50369466700100,113.60342449999000,g,1,2022_Mar_02_1342,hw_test,2021.2.3,60.000164760729100,
green,yellow,g,0,2,3,35,11,116.08646466699400,None,114.10346687499300,116.10328474998800,g,1,1.0015656660107200,116.08646466699400,None,116.08646466699400,116.18657179198600,g,1,2022_Mar_02_1342,hw_test,2021.2.3,60.000164760729100,
blue,blue,b,1,2,4,36,3,119.10325487499400,None,117.12033791698900,119.11978070899200,b,1,0.6432494990003760,119.10325487499400,None,119.10325487499400,119.20317687498800,g,1,2022_Mar_02_1342,hw_test,2021.2.3,60.000164760729100,
yellow,blue,y,0,2,5,37,9,121.75382891699000,None,119.77011879198800,121.7701241249890,y,1,0.5531015410088000,121.75382891699000,None,121.75382891699000,121.85411129199200,g,1,2022_Mar_02_1342,hw_test,2021.2.3,60.000164760729100,
green,yellow,g,0,2,6,38,11,124.31993858399800,None,122.33673020899000,124.33682937499500,g,1,0.3442981660045920,124.31993858399800,None,124.31993858399800,124.42015962499100,g,1,2022_Mar_02_1342,hw_test,2021.2.3,60.000164760729100,
red,red,r,1,2,7,39,0,126.66982295899700,None,124.68714754199000,126.6868961250000,r,1,0.5340120409964580,126.66982295899700,None,126.66982295899700,126.77014924999100,g,1,2022_Mar_02_1342,hw_test,2021.2.3,60.000164760729100,
blue,blue,b,1,2,8,40,3,129.22063554199100,None,127.23650437498900,129.23692683399700,b,1,1.018667208001720,129.22063554199100,None,129.22063554199100,129.32042937498800,g,1,2022_Mar_02_1342,hw_test,2021.2.3,60.000164760729100,
yellow,blue,y,0,2,9,41,9,132.25327070899900,None,130.27036245899200,132.27002333400000,y,1,0.476733999006683,132.25327070899900,None,132.25327070899900,132.35339399999100,g,1,2022_Mar_02_1342,hw_test,2021.2.3,60.000164760729100,
yellow,blue,y,0,2,10,42,9,134.73701920898700,None,132.75329958398700,134.7535192919900,y,1,0.7221140000037850,134.73701920898700,None,134.73701920898700,134.83683270899900,g,1,2022_Mar_02_1342,hw_test,2021.2.3,60.000164760729100,
blue,red,b,0,2,11,43,13,137.46990012499700,None,135.48707074999400,137.48673441699100,b,1,0.6474876240099550,137.46990012499700,None,137.46990012499700,137.5705567499970,g,1,2022_Mar_02_1342,hw_test,2021.2.3,60.000164760729100,
yellow,green,y,0,2,12,44,8,140.12014670900000,None,138.13721295898700,140.13683066699000,y,1,0.7359404159942640,140.12014670900000,None,140.12014670900000,140.22018345899400,g,1,2022_Mar_02_1342,hw_test,2021.2.3,60.000164760729100,
red,blue,r,0,2,13,45,6,142.8701315419890,None,140.88698558398800,142.88696583399700,r,1,0.6345649990107630,142.8701315419890,None,142.8701315419890,142.96985608399000,g,1,2022_Mar_02_1342,hw_test,2021.2.3,60.000164760729100,
yellow,green,y,0,2,14,46,8,145.52053170900000,None,143.5366867499980,145.5375792089910,y,1,0.5978089999989610,145.52053170900000,None,145.52053170900000,145.62097141699600,g,1,2022_Mar_02_1342,hw_test,2021.2.3,60.000164760729100,
yellow,red,y,0,2,15,47,7,148.1199332499960,None,146.1369443339940,148.13669649999100,y,1,0.41732641600538000,148.1199332499960,None,148.1199332499960,148.22032199999400,g,1,2022_Mar_02_1342,hw_test,2021.2.3,60.000164760729100,
green,green,g,1,3,0,48,2,150.5535174169930,None,148.5702933339930,150.57023016699500,g,1,0.5587509570032130,150.5535174169930,None,150.5535174169930,150.6536919999930,g,1,2022_Mar_02_1342,hw_test,2021.2.3,60.000164760729100,
red,yellow,r,0,3,1,49,4,153.12064091699700,None,151.1373753339870,153.13667324998800,r,1,0.5857959160057360,153.12064091699700,None,153.12064091699700,153.22045887498800,g,1,2022_Mar_02_1342,hw_test,2021.2.3,60.000164760729100,
blue,blue,b,1,3,2,50,3,155.72047891699200,None,153.73716095899,155.73690095898900,b,1,1.211942916008410,155.72047891699200,None,155.72047891699200,155.8200799169860,g,1,2022_Mar_02_1342,hw_test,2021.2.3,60.000164760729100,
green,yellow,g,0,3,3,51,11,158.9455014589910,None,156.9540249999990,158.969033166999,g,1,0.780458458000794,158.9455014589910,None,158.9455014589910,159.05368354199200,g,1,2022_Mar_02_1342,hw_test,2021.2.3,60.000164760729100,
green,yellow,g,0,3,4,52,11,161.737505416997,None,159.75330537499400,161.75368562499400,g,1,0.7102445409982470,161.737505416997,None,161.737505416997,161.83680608400000,g,1,2022_Mar_02_1342,hw_test,2021.2.3,60.000164760729100,
blue,blue,b,1,3,5,53,3,164.45343599999600,None,162.47050095899600,164.47023595898600,b,1,0.959127708003507,164.45343599999600,None,164.45343599999600,164.55346199999600,g,1,2022_Mar_02_1342,hw_test,2021.2.3,60.000164760729100,
red,red,r,1,3,6,54,0,167.4200571669940,None,165.43729845898600,167.43700991699000,r,1,0.5111087910045170,167.4200571669940,None,167.4200571669940,167.51991666699200,g,1,2022_Mar_02_1342,hw_test,2021.2.3,60.000164760729100,
yellow,green,y,0,3,7,55,8,169.93760312499900,None,167.95398304199600,169.95391779199400,y,1,0.5159134580026150,169.93760312499900,None,169.93760312499900,170.03722324999400,g,1,2022_Mar_02_1342,hw_test,2021.2.3,60.000164760729100,
green,red,g,0,3,8,56,10,172.45382770898900,None,170.47011679199900,172.47001524998600,g,1,0.6237457489914960,172.45382770898900,None,172.45382770898900,172.5536095839930,g,1,2022_Mar_02_1342,hw_test,2021.2.3,60.000164760729100,
green,blue,g,0,3,9,57,12,175.08738604199600,None,173.10354441699700,175.10339195899700,g,1,0.47982754101394700,175.08738604199600,None,175.08738604199600,175.18684908399900,g,1,2022_Mar_02_1342,hw_test,2021.2.3,60.000164760729100,
yellow,red,y,0,3,10,58,7,177.5705826249910,None,175.58720945898700,177.58694774999500,y,1,0.9185507489892190,177.5705826249910,None,177.5705826249910,177.6703089169900,g,1,2022_Mar_02_1342,hw_test,2021.2.3,60.000164760729100,
yellow,red,y,0,3,11,59,7,180.50367562499000,None,178.5203349589870,180.52087304199800,y,1,0.41848108200065300,180.50367562499000,None,180.50367562499000,180.60392133399700,g,1,2022_Mar_02_1342,hw_test,2021.2.3,60.000164760729100,
yellow,yellow,y,1,3,12,60,1,182.93717749998900,None,180.95448454198800,182.9535156669880,y,1,0.4586014569940740,182.93717749998900,None,182.93717749998900,183.03712445899100,g,1,2022_Mar_02_1342,hw_test,2021.2.3,60.000164760729100,
red,blue,r,0,3,13,61,6,185.40352637499700,None,183.42103691698900,185.42041912498800,r,1,0.5745955829916060,185.40352637499700,None,185.40352637499700,185.5035661669970,g,1,2022_Mar_02_1342,hw_test,2021.2.3,60.000164760729100,
yellow,blue,y,0,3,14,62,9,187.98676220899500,None,186.0033919169950,188.00341816699100,y,1,0.6105178330035420,187.98676220899500,None,187.98676220899500,188.0866552919910,g,1,2022_Mar_02_1342,hw_test,2021.2.3,60.000164760729100,
green,red,g,0,3,15,63,10,190.60367787499900,None,188.6206874169880,190.62032524999800,g,1,0.746636166004464,190.60367787499900,None,190.60367787499900,190.70352691698600,g,1,2022_Mar_02_1342,hw_test,2021.2.3,60.000164760729100,
green,yellow,g,0,4,0,64,11,193.35414479200000,None,191.38582766699300,193.38664245899400,g,1,0.48111358199094000,193.35414479200000,None,193.35414479200000,193.45337499999700,g,1,2022_Mar_02_1342,hw_test,2021.2.3,60.000164760729100,
yellow,blue,y,0,4,1,65,9,195.8373383339930,None,193.86917816699100,195.87099899999200,y,1,0.3995424160093540,195.8373383339930,None,195.8373383339930,195.93695170899400,g,1,2022_Mar_02_1342,hw_test,2021.2.3,60.000164760729100,
red,red,r,1,4,2,66,0,198.23645899999200,None,196.253871916997,198.25384062499500,r,1,0.43968691599729900,198.23645899999200,None,198.23645899999200,198.33682191699300,g,1,2022_Mar_02_1342,hw_test,2021.2.3,60.000164760729100,
yellow,red,y,0,4,3,67,7,200.68691949998900,None,198.70329395899900,200.70366154199300,y,1,0.4860085819964300,200.68691949998900,None,200.68691949998900,200.78689204200100,g,1,2022_Mar_02_1342,hw_test,2021.2.3,60.000164760729100,
yellow,yellow,y,1,4,4,68,1,203.18687325000100,None,201.2032693749930,203.20349670900000,y,1,0.46253979099856200,203.18687325000100,None,203.18687325000100,203.28656495899500,g,1,2022_Mar_02_1342,hw_test,2021.2.3,60.000164760729100,
green,red,g,0,4,5,69,10,205.65351749998800,None,203.67068912499200,205.66997629198900,g,1,0.5439512500015550,205.65351749998800,None,205.65351749998800,205.7534330419880,g,1,2022_Mar_02_1342,hw_test,2021.2.3,60.000164760729100,
yellow,green,y,0,4,6,70,8,208.20413812498700,None,206.22060020899500,208.22028874998800,y,1,0.5427872069994920,208.20413812498700,None,208.20413812498700,208.30323708399400,g,1,2022_Mar_02_1342,hw_test,2021.2.3,60.000164760729100,
green,blue,g,0,4,7,71,12,210.75357466698900,None,208.78576624998800,210.7875093749900,g,1,0.6373802080051970,210.75357466698900,None,210.75357466698900,210.8533383749890,g,1,2022_Mar_02_1342,hw_test,2021.2.3,60.000164760729100,
blue,yellow,b,0,4,8,72,14,213.40362570899000,None,211.42033908399800,213.4203553749980,b,1,0.7605675410013650,213.40362570899000,None,213.40362570899000,213.5034301669950,g,1,2022_Mar_02_1342,hw_test,2021.2.3,60.000164760729100,
red,green,r,0,4,9,73,5,216.1700956249990,None,214.18666987499500,216.18666087499900,r,1,0.5142726240010230,216.1700956249990,None,216.1700956249990,216.26997850000000,g,1,2022_Mar_02_1342,hw_test,2021.2.3,60.000164760729100,
blue,green,b,0,4,10,74,15,218.68684754199100,None,216.7036299170000,218.70354895899100,b,1,0.7046258330083220,218.68684754199100,None,218.68684754199100,218.78685537498700,g,1,2022_Mar_02_1342,hw_test,2021.2.3,60.000164760729100,
red,red,r,1,4,11,75,0,221.40416149998800,None,219.4204015419960,221.4208477499920,r,1,0.4563159160024950,221.40416149998800,None,221.40416149998800,221.50961966699100,g,1,2022_Mar_02_1342,hw_test,2021.2.3,60.000164760729100,
green,green,g,1,4,12,76,2,223.87024841699200,None,221.8871421669900,223.88686187499800,g,1,0.4884447079966780,223.87024841699200,None,223.87024841699200,223.97132758398900,g,1,2022_Mar_02_1342,hw_test,2021.2.3,60.000164760729100,
red,blue,r,0,4,13,77,6,226.37024595899900,None,224.38725058399700,226.38677199999800,r,1,0.8255032070010200,226.37024595899900,None,226.37024595899900,226.46986824998700,g,1,2022_Mar_02_1342,hw_test,2021.2.3,60.000164760729100,
green,blue,g,0,4,14,78,12,229.20357845899700,None,227.22006158399700,229.22074158399500,g,1,0.39659154099354100,229.20357845899700,None,229.20357845899700,229.3035608749920,g,1,2022_Mar_02_1342,hw_test,2021.2.3,60.000164760729100,
yellow,blue,y,0,4,15,79,9,231.60341141698900,None,229.6201857089910,231.620578749993,y,1,0.5713113740057450,231.60341141698900,None,231.60341141698900,231.70346074999500,g,1,2022_Mar_02_1342,hw_test,2021.2.3,60.000164760729100,
yellow,yellow,y,1,5,0,80,1,234.18678833398700,None,232.20391570898900,234.2035802499890,y,1,0.5458187909971460,234.18678833398700,None,234.18678833398700,234.28690049999600,g,1,2022_Mar_02_1342,hw_test,2021.2.3,60.000164760729100,
yellow,yellow,y,1,5,1,81,1,236.7366940840000,None,234.7538739169980,236.7534856669950,y,1,0.5165292909950950,236.7366940840000,None,236.7366940840000,236.83673962499600,g,1,2022_Mar_02_1342,hw_test,2021.2.3,60.000164760729100,
red,green,r,0,5,2,82,5,239.25364887499000,None,237.27069537498800,239.27000979198800,r,1,0.7046842500130880,239.25364887499000,None,239.25364887499000,239.3535663340010,g,1,2022_Mar_02_1342,hw_test,2021.2.3,60.000164760729100,
blue,blue,b,1,5,3,83,3,241.9702962089940,None,239.98708041699100,241.9868257499910,b,1,0.7910673739970660,241.9702962089940,None,241.9702962089940,242.0701243749940,g,1,2022_Mar_02_1342,hw_test,2021.2.3,60.000164760729100,
green,green,g,1,5,4,84,2,244.77093379199500,None,242.8022756249990,244.8041052089980,g,1,0.5196277499926510,244.77093379199500,None,244.77093379199500,244.86998991698800,g,1,2022_Mar_02_1342,hw_test,2021.2.3,60.000164760729100,
blue,green,b,0,5,5,85,15,247.30403308398700,None,245.32010629199800,247.32003624999200,b,1,0.41032675000315100,247.30403308398700,None,247.30403308398700,247.40356999999500,g,1,2022_Mar_02_1342,hw_test,2021.2.3,60.000164760729100,
green,green,g,1,5,6,86,2,249.72046283399700,None,247.73673583399800,249.7367211249950,g,1,0.50401195800805,249.72046283399700,None,249.72046283399700,249.82028520898900,g,1,2022_Mar_02_1342,hw_test,2021.2.3,60.000164760729100,
red,yellow,r,0,5,7,87,4,252.23701779199500,None,250.25327824999100,252.25363687500100,r,1,0.6132691660022830,252.23701779199500,None,252.23701779199500,252.33672679199700,g,1,2022_Mar_02_1342,hw_test,2021.2.3,60.000164760729100,
green,blue,g,0,5,8,88,12,254.85407683398800,None,252.8704825839960,254.87008362499200,g,1,0.40928487401106400,254.85407683398800,None,254.85407683398800,254.9537262919910,g,1,2022_Mar_02_1342,hw_test,2021.2.3,60.000164760729100,
red,blue,r,0,5,9,89,6,257.2705787499870,None,255.28663479199200,257.2873701669890,r,1,0.48743654099234800,257.2705787499870,None,257.2705787499870,257.37038012499400,g,1,2022_Mar_02_1342,hw_test,2021.2.3,60.000164760729100,
blue,yellow,b,0,5,10,90,14,259.76994620899500,None,257.7870959169960,259.78719366699800,y,0,0.43614383300882800,259.76994620899500,None,259.76994620899500,259.87000479199900,g,1,2022_Mar_02_1342,hw_test,2021.2.3,60.000164760729100,
blue,yellow,b,0,5,11,91,14,262.2205584170010,None,260.2366126249980,262.2372312499940,b,1,0.9453076659992800,262.2205584170010,None,262.2205584170010,262.32027162499400,g,1,2022_Mar_02_1342,hw_test,2021.2.3,60.000164760729100,
red,green,r,0,5,12,92,5,265.1700773749910,None,263.18781079199100,265.20348216699500,r,1,0.8924669159896440,265.1700773749910,None,265.1700773749910,265.2705298749930,g,1,2022_Mar_02_1342,hw_test,2021.2.3,60.000164760729100,
green,yellow,g,0,5,13,93,11,268.070556916995,None,266.0872771669970,268.08689033398700,g,1,0.7893642080016430,268.070556916995,None,268.070556916995,268.17027629198900,g,1,2022_Mar_02_1342,hw_test,2021.2.3,60.000164760729100,
yellow,blue,y,0,5,14,94,9,270.86990133399400,None,268.9024546669970,270.90342741699700,y,1,0.8259345410042440,270.86990133399400,None,270.86990133399400,270.9704173749920,g,1,2022_Mar_02_1342,hw_test,2021.2.3,60.000164760729100,
yellow,red,y,0,5,15,95,7,273.7040304169930,None,271.7200723749990,273.7202622919870,y,1,0.5168212910066360,273.7040304169930,None,273.7040304169930,273.8037253749940,g,1,2022_Mar_02_1342,hw_test,2021.2.3,60.000164760729100,
blue,green,b,0,6,0,96,15,276.2369464999940,None,274.2537119169870,276.253537874989,b,1,0.8890846249996680,276.2369464999940,None,276.2369464999940,276.336712874996,g,1,2022_Mar_02_1342,hw_test,2021.2.3,60.000164760729100,
green,red,g,0,6,1,97,10,279.13690666698700,None,277.1532054999990,279.15334741699900,g,1,1.5773310830118100,279.13690666698700,None,279.13690666698700,279.2366469169940,g,1,2022_Mar_02_1342,hw_test,2021.2.3,60.000164760729100,
blue,blue,b,1,6,2,98,3,282.720121041988,None,280.73743020898800,282.7369979169890,b,1,0.5372879569913490,282.720121041988,None,282.720121041988,282.8202149169960,g,1,2022_Mar_02_1342,hw_test,2021.2.3,60.000164760729100,
red,blue,r,0,6,3,99,6,285.26980291699900,None,283.28666408399300,285.28677195899900,r,1,0.5558784159948120,285.26980291699900,None,285.26980291699900,285.3701579169870,g,1,2022_Mar_02_1342,hw_test,2021.2.3,60.000164760729100,
green,yellow,g,0,6,4,100,11,287.83734479198800,None,285.85329091698800,287.8535598749880,g,1,0.6282424579985670,287.83734479198800,None,287.83734479198800,287.9369658749930,g,1,2022_Mar_02_1342,hw_test,2021.2.3,60.000164760729100,
red,green,r,0,6,5,101,5,290.4708209169910,None,288.4874713749890,290.4868506669880,r,1,0.49921362500754200,290.4708209169910,None,290.4708209169910,290.5699851249960,g,1,2022_Mar_02_1342,hw_test,2021.2.3,60.000164760729100,
blue,green,b,0,6,6,102,15,292.970127166991,None,290.98694949998800,292.9868560839970,b,1,1.139842624994340,292.970127166991,None,292.970127166991,293.07002637499000,g,1,2022_Mar_02_1342,hw_test,2021.2.3,60.000164760729100,
green,yellow,g,0,6,7,103,11,296.12022495899900,None,294.13651062498700,296.1368701249890,g,1,0.6962039999925760,296.12022495899900,None,296.12022495899900,296.22046316698800,g,1,2022_Mar_02_1342,hw_test,2021.2.3,60.000164760729100,
blue,green,b,0,6,8,104,15,298.8199310839990,None,296.83735912499800,298.83721883400000,b,1,0.6314277490018870,298.8199310839990,None,298.8199310839990,298.9202099999970,g,1,2022_Mar_02_1342,hw_test,2021.2.3,60.000164760729100,
red,red,r,1,6,9,105,0,301.4537784999990,None,299.470286249998,301.47021670900000,r,1,0.5113939570001090,301.4537784999990,None,301.4537784999990,301.5537835419960,g,1,2022_Mar_02_1342,hw_test,2021.2.3,60.000164760729100,
green,blue,g,0,6,10,106,12,303.9700622919920,None,301.9866981669910,303.98685854199000,g,1,0.632692125000176,303.9700622919920,None,303.9700622919920,304.07056270899200,g,1,2022_Mar_02_1342,hw_test,2021.2.3,60.000164760729100,
blue,green,b,0,6,11,107,15,306.6036883749910,None,304.6216318749940,306.63693537499100,b,1,0.9059413740033050,306.6036883749910,None,306.6036883749910,306.70373783398800,g,1,2022_Mar_02_1342,hw_test,2021.2.3,60.000164760729100,
green,green,g,1,6,12,108,2,309.5199389169870,None,307.53654945899300,309.5366794589940,g,1,0.6098422080103770,309.5199389169870,None,309.5199389169870,309.62020833398900,g,1,2022_Mar_02_1342,hw_test,2021.2.3,60.000164760729100,
yellow,blue,y,0,6,13,109,9,312.13729474999100,None,310.1539842499920,312.15326158399700,y,1,0.6726235409878430,312.13729474999100,None,312.13729474999100,312.237240833987,g,1,2022_Mar_02_1342,hw_test,2021.2.3,60.000164760729100,
blue,yellow,b,0,6,14,110,14,314.8200563750000,None,312.8370883749890,314.8369867500010,b,1,0.9303046239947440,314.8200563750000,None,314.8200563750000,314.9201224589920,g,1,2022_Mar_02_1342,hw_test,2021.2.3,60.000164760729100,
yellow,red,y,0,6,15,111,7,317.7540702499970,None,315.7702044589970,317.770388334,y,1,0.723036957992008,317.7540702499970,None,317.7540702499970,317.85361195899900,g,1,2022_Mar_02_1342,hw_test,2021.2.3,60.000164760729100,
green,blue,g,0,7,0,112,12,320.48689458399900,None,318.503679292,320.50383970899600,g,1,0.6323892069922290,320.48689458399900,None,320.48689458399900,320.5866387089920,g,1,2022_Mar_02_1342,hw_test,2021.2.3,60.000164760729100,
green,green,g,1,7,1,113,2,323.1203078749970,None,321.1370499589980,323.1371691249950,g,1,0.49702620699827100,323.1203078749970,None,323.1203078749970,323.22091012499000,g,1,2022_Mar_02_1342,hw_test,2021.2.3,60.000164760729100,
blue,green,b,0,7,2,114,15,325.6203899999960,None,323.63693912499,325.63668241699600,b,1,0.521195624009124,325.6203899999960,None,325.6203899999960,325.7203360419950,g,1,2022_Mar_02_1342,hw_test,2021.2.3,60.000164760729100,
green,green,g,1,7,3,115,2,328.1532494589920,None,326.1700318749940,328.17030812498700,g,1,0.4793622909928670,328.1532494589920,None,328.1532494589920,328.25391929199400,g,1,2022_Mar_02_1342,hw_test,2021.2.3,60.000164760729100,
red,yellow,r,0,7,4,116,4,330.6366221669890,None,328.6543554999950,330.67015466699400,r,1,0.5865061239892380,330.6366221669890,None,330.6366221669890,330.7365541249890,g,1,2022_Mar_02_1342,hw_test,2021.2.3,60.000164760729100,
blue,yellow,b,0,7,5,117,14,333.23668233399800,None,331.2534174589960,333.25376574999200,b,1,0.6592065000004370,333.23668233399800,None,333.23668233399800,333.3367019589930,g,1,2022_Mar_02_1342,hw_test,2021.2.3,60.000164760729100,
blue,red,b,0,7,6,118,13,335.90477154198700,None,333.92068274998700,335.9204222919940,b,1,0.822765958000673,335.90477154198700,None,335.90477154198700,336.00396045899800,g,1,2022_Mar_02_1342,hw_test,2021.2.3,60.000164760729100,
green,green,g,1,7,7,119,2,338.7371511669920,None,336.75385258399200,338.75394795899000,g,1,0.5026512909971640,338.7371511669920,None,338.7371511669920,338.8369589590000,g,1,2022_Mar_02_1342,hw_test,2021.2.3,60.000164760729100,
green,yellow,g,0,7,8,120,11,341.2537108749970,None,339.2706130419970,341.27028399999800,y,0,0.8211120409978320,341.2537108749970,None,341.2537108749970,341.3539150000000,g,1,2022_Mar_02_1342,hw_test,2021.2.3,60.000164760729100,
yellow,green,y,0,7,9,121,8,344.0874566669950,None,342.1036747920010,344.1038391669860,y,1,0.7923307070013830,344.0874566669950,None,344.0874566669950,344.18687254199200,g,1,2022_Mar_02_1342,hw_test,2021.2.3,60.000164760729100,
blue,green,b,0,7,10,122,15,346.88685166699000,None,344.90360841699300,346.9033479169880,b,1,0.7321059160021830,346.88685166699000,None,346.88685166699000,346.9868476249980,g,1,2022_Mar_02_1342,hw_test,2021.2.3,60.000164760729100,
red,yellow,r,0,7,11,123,4,349.62118545899300,None,347.63731562499000,349.63802216699700,r,1,0.5754500409966570,349.62118545899300,None,349.62118545899300,349.72074120899200,g,1,2022_Mar_02_1342,hw_test,2021.2.3,60.000164760729100,
red,red,r,1,7,12,124,0,352.20420479199700,None,350.2203077499870,352.22074712500000,r,1,0.4670837909943660,352.20420479199700,None,352.20420479199700,352.3041492919870,g,1,2022_Mar_02_1342,hw_test,2021.2.3,60.000164760729100,
red,green,r,0,7,13,125,5,354.68693116698700,None,352.703812458989,354.70382812499900,g,0,0.6720374579890630,354.68693116698700,None,354.68693116698700,354.7872075839990,g,1,2022_Mar_02_1342,hw_test,2021.2.3,60.000164760729100,
red,yellow,r,0,7,14,126,4,357.3707257089990,None,355.38733591699600,357.38732516698700,r,1,1.473590207999220,357.3707257089990,None,357.3707257089990,357.47050424999900,g,1,2022_Mar_02_1342,hw_test,2021.2.3,60.000164760729100,
yellow,green,y,0,7,15,127,8,360.85393891698900,None,358.8708887919930,360.87036124999600,y,1,0.6347221239993810,360.85393891698900,None,360.85393891698900,360.95352649998700,g,1,2022_Mar_02_1342,hw_test,2021.2.3,60.000164760729100,
red,green,r,0,8,0,128,5,363.5037064169880,None,361.52628708399400,363.537441249995,r,1,0.735487625002861,363.5037064169880,None,363.5037064169880,363.6041274589950,g,1,2022_Mar_02_1342,hw_test,2021.2.3,60.000164760729100,
red,yellow,r,0,8,1,129,4,366.2539280839990,None,364.2709607089930,366.2704162919980,r,1,0.951628166003502,366.2539280839990,None,366.2539280839990,366.353573083994,g,1,2022_Mar_02_1342,hw_test,2021.2.3,60.000164760729100,
red,yellow,r,0,8,2,130,4,369.2210631249910,None,367.2366676669920,369.23671225,r,1,0.958995540990145,369.2210631249910,None,369.2210631249910,369.320497083987,g,1,2022_Mar_02_1342,hw_test,2021.2.3,60.000164760729100,
red,blue,r,0,8,3,131,6,372.1870959999940,None,370.20433324998900,372.20385899998700,r,1,0.48952437400294,372.1870959999940,None,372.1870959999940,372.286890791991,g,1,2022_Mar_02_1342,hw_test,2021.2.3,60.000164760729100,
green,blue,g,0,8,4,132,12,374.68719524999300,None,372.70345345899100,374.7035254589860,g,1,0.8137465409963630,374.68719524999300,None,374.68719524999300,374.7870314170000,g,1,2022_Mar_02_1342,hw_test,2021.2.3,60.000164760729100,
blue,red,b,0,8,5,133,13,377.5032654589890,None,375.5207667090000,377.5201367499980,b,1,0.6429993329948050,377.5032654589890,None,377.5032654589890,377.60376383399100,g,1,2022_Mar_02_1342,hw_test,2021.2.3,60.000164760729100,
blue,red,b,0,8,6,134,13,380.1534281249920,None,378.17002479199400,380.17021883399900,b,1,0.6964812079968400,380.1534281249920,None,380.1534281249920,380.25372558400000,g,1,2022_Mar_02_1342,hw_test,2021.2.3,60.000164760729100,
blue,yellow,b,0,8,7,135,14,382.8538649999970,None,380.8712058749950,382.8700649999960,b,1,0.39651120800408500,382.8538649999970,None,382.8538649999970,382.9536731669940,g,1,2022_Mar_02_1342,hw_test,2021.2.3,60.000164760729100,
red,yellow,r,0,8,8,136,4,385.2538197089890,None,383.27033049998900,385.27045270899500,r,1,0.5143187069916170,385.2538197089890,None,385.2538197089890,385.3537989589970,g,1,2022_Mar_02_1342,hw_test,2021.2.3,60.000164760729100,
yellow,blue,y,0,8,9,137,9,387.7699563339990,None,385.7873413339990,387.78667366699700,y,1,0.5975181659887310,387.7699563339990,None,387.7699563339990,387.8703353749880,g,1,2022_Mar_02_1342,hw_test,2021.2.3,60.000164760729100,
blue,red,b,0,8,10,138,13,390.37019583399500,None,388.38704495898900,390.3870361249870,b,1,0.8462991659907860,390.37019583399500,None,390.37019583399500,390.4703847919880,g,1,2022_Mar_02_1342,hw_test,2021.2.3,60.000164760729100,
red,red,r,1,8,11,139,0,393.2199497919940,None,391.2371852919900,393.23693116699000,r,1,0.501859541007434,393.2199497919940,None,393.2199497919940,393.3203277089920,g,1,2022_Mar_02_1342,hw_test,2021.2.3,60.000164760729100,
red,red,r,1,8,12,140,0,395.7368223749950,None,393.75343162499500,395.75371999999300,r,1,0.48723912400601000,395.7368223749950,None,395.7368223749950,395.8370547089870,g,1,2022_Mar_02_1342,hw_test,2021.2.3,60.000164760729100,
blue,blue,b,1,8,13,141,3,398.23733512499900,None,396.25344799998900,398.25408712499500,b,1,0.5789852500020060,398.23733512499900,None,398.23733512499900,398.3374569999870,g,1,2022_Mar_02_1342,hw_test,2021.2.3,60.000164760729100,
red,blue,r,0,8,14,142,6,400.82033379199900,None,398.8369095419910,400.83712787499800,r,1,0.7191483740025430,400.82033379199900,None,400.82033379199900,400.92020262499900,g,1,2022_Mar_02_1342,hw_test,2021.2.3,60.000164760729100,
red,yellow,r,0,8,15,143,4,403.55403804199900,None,401.5712376249870,403.57010991699600,r,1,0.4865575409930900,403.55403804199900,None,403.55403804199900,403.65369875000000,g,1,2022_Mar_02_1342,hw_test,2021.2.3,60.000164760729100,
blue,red,b,0,9,0,144,13,406.0537774169930,None,404.07051554200000,406.07093916699500,b,1,0.5792310830001950,406.0537774169930,None,406.0537774169930,406.15400108399600,g,1,2022_Mar_02_1342,hw_test,2021.2.3,60.000164760729100,
yellow,green,y,0,9,1,145,8,408.63663745900000,None,406.65375849999000,408.6536769999950,y,1,0.49819491599919300,408.63663745900000,None,408.63663745900000,408.737328541989,g,1,2022_Mar_02_1342,hw_test,2021.2.3,60.000164760729100,
green,red,g,0,9,2,146,10,411.13723441699400,None,409.1541329170000,411.153592208997,g,1,0.6755856660020070,411.13723441699400,None,411.13723441699400,411.2370754589940,g,1,2022_Mar_02_1342,hw_test,2021.2.3,60.000164760729100,
green,red,g,0,9,3,147,10,413.82063649999300,None,411.83684937498800,413.8370242089880,g,1,0.44903645699378100,413.82063649999300,None,413.82063649999300,413.9203425839950,g,1,2022_Mar_02_1342,hw_test,2021.2.3,60.000164760729100,
blue,red,b,0,9,4,148,13,416.2702375839870,None,414.2869910419980,416.28706716699500,b,1,0.6927950410026820,416.2702375839870,None,416.2702375839870,416.37026020899100,g,1,2022_Mar_02_1342,hw_test,2021.2.3,60.000164760729100,
yellow,yellow,y,1,9,5,149,1,418.97088933399900,None,416.98793262499400,418.98710533398800,y,1,0.5111364579934160,418.97088933399900,None,418.97088933399900,419.07034824999600,g,1,2022_Mar_02_1342,hw_test,2021.2.3,60.000164760729100,
blue,red,b,0,9,6,150,13,421.48705395899000,None,419.5037617499910,421.5036739169880,b,1,0.9990910409978820,421.48705395899000,None,421.48705395899000,421.5867329170000,g,1,2022_Mar_02_1342,hw_test,2021.2.3,60.000164760729100,
yellow,yellow,y,1,9,7,151,1,424.48707762498800,None,422.50457799999300,424.5038523339900,y,1,0.538748332997784,424.48707762498800,None,424.48707762498800,424.58678645899600,g,1,2022_Mar_02_1342,hw_test,2021.2.3,60.000164760729100,
yellow,blue,y,0,9,8,152,9,427.03689183399500,None,425.0536011669900,427.05344433400000,y,1,0.51287529100955,427.03689183399500,None,427.03689183399500,427.13705325000000,g,1,2022_Mar_02_1342,hw_test,2021.2.3,60.000164760729100,
blue,yellow,b,0,9,9,153,14,429.5536165839880,None,427.5708814589890,429.57078924999200,b,1,0.6312344990001290,429.5536165839880,None,429.5536165839880,429.6537614999980,g,1,2022_Mar_02_1342,hw_test,2021.2.3,60.000164760729100,
green,red,g,0,9,10,154,10,432.18718691699900,None,430.20497341700000,432.22040995898700,g,1,0.5856269989890280,432.18718691699900,None,432.18718691699900,432.2871213749900,g,1,2022_Mar_02_1342,hw_test,2021.2.3,60.000164760729100,
green,green,g,1,9,11,155,2,434.7871004169870,None,432.8033464170000,434.80366012499100,g,1,0.638569707996794,434.7871004169870,None,434.7871004169870,434.88706116699900,g,1,2022_Mar_02_1342,hw_test,2021.2.3,60.000164760729100,
red,blue,r,0,9,12,156,6,437.4366368339980,None,435.45392645899800,437.4536047089930,r,1,0.5631652070005660,437.4366368339980,None,437.4366368339980,437.5373836669900,g,1,2022_Mar_02_1342,hw_test,2021.2.3,60.000164760729100,
blue,blue,b,1,9,13,157,3,440.0041445839890,None,438.02032424999900,440.02038904199400,b,1,1.31764262499928,440.0041445839890,None,440.0041445839890,440.1036222919940,g,1,2022_Mar_02_1342,hw_test,2021.2.3,60.000164760729100,
yellow,red,y,0,9,14,158,7,443.33668724999000,None,441.35427562499500,443.35337629199800,y,1,0.6579934990004400,443.33668724999000,None,443.33668724999000,443.43700291699500,g,1,2022_Mar_02_1342,hw_test,2021.2.3,60.000164760729100,
green,green,g,1,9,15,159,2,446.00419133399600,None,444.02057804199300,446.02028420899300,g,1,0.5645702909969260,446.00419133399600,None,446.00419133399600,446.10362349999200,g,1,2022_Mar_02_1342,hw_test,2021.2.3,60.000164760729100,